#
#Caiguda de tensió (DC)
#a la sortida del microcalorímetre
#t (s);#V (mV)
-0.03;-1.493E+00
0.99;-1.494E+00
1.99;-1.494E+00
2.99;-1.495E+00
3.99;-1.495E+00
4.99;-1.496E+00
6.00;-1.496E+00
7.01;-1.497E+00
8.01;-1.497E+00
9.01;-1.498E+00
10.01;-1.498E+00
11.01;-1.499E+00
12.01;-1.499E+00
13.01;-1.500E+00
14.01;-1.500E+00
15.01;-1.501E+00
16.01;-1.501E+00
17.01;-1.502E+00
18.01;-1.502E+00
19.01;-1.502E+00
20.01;-1.503E+00
21.01;-1.503E+00
22.01;-1.504E+00
23.01;-1.504E+00
24.03;-1.505E+00
25.03;-1.505E+00
26.03;-1.505E+00
27.03;-1.506E+00
28.04;-1.506E+00
29.04;-1.506E+00
30.04;-1.507E+00
31.04;-1.508E+00
32.04;-1.508E+00
33.04;-1.508E+00
34.04;-1.509E+00
35.04;-1.509E+00
36.04;-1.510E+00
37.04;-1.510E+00
38.04;-1.510E+00
39.04;-1.510E+00
40.04;-1.511E+00
41.04;-1.511E+00
42.04;-1.512E+00
43.04;-1.512E+00
44.04;-1.512E+00
45.04;-1.512E+00
46.04;-1.513E+00
47.04;-1.513E+00
48.04;-1.514E+00
49.04;-1.514E+00
50.04;-1.514E+00
51.04;-1.514E+00
52.04;-1.515E+00
53.04;-1.515E+00
54.04;-1.515E+00
55.06;-1.515E+00
56.06;-1.516E+00
57.06;-1.516E+00
58.06;-1.516E+00
59.05;-1.517E+00
60.05;-1.517E+00
61.05;-1.517E+00
62.05;-1.518E+00
63.05;-1.518E+00
64.05;-1.518E+00
65.05;-1.518E+00
66.05;-1.518E+00
67.05;-1.519E+00
68.05;-1.519E+00
69.05;-1.519E+00
70.05;-1.519E+00
71.05;-1.520E+00
72.05;-1.520E+00
73.05;-1.520E+00
74.05;-1.520E+00
75.05;-1.520E+00
76.05;-1.521E+00
77.07;-1.521E+00
78.07;-1.521E+00
79.07;-1.521E+00
80.07;-1.522E+00
81.08;-1.522E+00
82.08;-1.522E+00
83.08;-1.522E+00
84.08;-1.522E+00
85.08;-1.522E+00
86.08;-1.522E+00
87.08;-1.522E+00
88.08;-1.523E+00
89.08;-1.523E+00
90.08;-1.523E+00
91.08;-1.523E+00
92.08;-1.524E+00
93.08;-1.524E+00
94.08;-1.524E+00
95.08;-1.524E+00
96.08;-1.524E+00
97.10;-1.524E+00
98.11;-1.524E+00
99.12;-1.524E+00
100.12;-1.525E+00
101.12;-1.525E+00
102.12;-1.525E+00
103.12;-1.525E+00
104.12;-1.525E+00
105.12;-1.526E+00
106.12;-1.526E+00
107.12;-1.526E+00
108.12;-1.525E+00
109.12;-1.526E+00
110.12;-1.526E+00
111.12;-1.526E+00
112.12;-1.526E+00
113.12;-1.526E+00
114.12;-1.526E+00
115.12;-1.526E+00
116.14;-1.526E+00
117.14;-1.526E+00
118.14;-1.526E+00
119.14;-1.526E+00
120.14;-1.526E+00
121.14;-1.527E+00
122.14;-1.527E+00
123.14;-1.527E+00
124.14;-1.527E+00
125.14;-1.527E+00
126.14;-1.527E+00
127.14;-1.528E+00
128.14;-1.527E+00
129.14;-1.527E+00
130.14;-1.527E+00
131.14;-1.527E+00
132.14;-1.528E+00
133.14;-1.527E+00
134.14;-1.527E+00
135.14;-1.528E+00
136.15;-1.527E+00
137.15;-1.528E+00
138.16;-1.528E+00
139.16;-1.528E+00
140.16;-1.528E+00
141.16;-1.528E+00
142.16;-1.528E+00
143.16;-1.528E+00
144.16;-1.528E+00
145.16;-1.528E+00
146.16;-1.528E+00
147.16;-1.528E+00
148.16;-1.528E+00
149.16;-1.528E+00
150.16;-1.528E+00
151.16;-1.528E+00
152.16;-1.528E+00
153.16;-1.528E+00
154.16;-1.527E+00
155.16;-1.528E+00
156.18;-1.528E+00
157.19;-1.528E+00
158.21;-1.528E+00
159.21;-1.528E+00
160.21;-1.528E+00
161.21;-1.528E+00
162.21;-1.528E+00
163.21;-1.528E+00
164.21;-1.528E+00
165.21;-1.528E+00
166.21;-1.527E+00
167.21;-1.527E+00
168.21;-1.527E+00
169.21;-1.528E+00
170.21;-1.527E+00
171.21;-1.528E+00
172.21;-1.527E+00
173.21;-1.528E+00
174.21;-1.527E+00
175.21;-1.527E+00
176.21;-1.527E+00
177.22;-1.527E+00
178.22;-1.527E+00
179.22;-1.527E+00
180.22;-1.527E+00
181.22;-1.527E+00
182.22;-1.527E+00
183.22;-1.527E+00
184.22;-1.527E+00
185.22;-1.527E+00
186.22;-1.527E+00
187.22;-1.526E+00
188.22;-1.527E+00
189.22;-1.527E+00
190.22;-1.526E+00
191.22;-1.526E+00
192.22;-1.526E+00
193.22;-1.526E+00
194.22;-1.526E+00
195.22;-1.526E+00
196.22;-1.526E+00
197.22;-1.526E+00
198.22;-1.526E+00
199.22;-1.526E+00
200.22;-1.525E+00
201.23;-1.525E+00
202.23;-1.525E+00
203.23;-1.525E+00
204.23;-1.525E+00
205.23;-1.525E+00
206.23;-1.524E+00
207.23;-1.524E+00
208.23;-1.524E+00
209.23;-1.524E+00
210.23;-1.524E+00
211.23;-1.524E+00
212.23;-1.524E+00
213.23;-1.523E+00
214.23;-1.523E+00
215.23;-1.523E+00
216.23;-1.523E+00
217.23;-1.523E+00
218.23;-1.522E+00
219.23;-1.522E+00
220.23;-1.522E+00
221.23;-1.522E+00
222.23;-1.521E+00
223.23;-1.521E+00
224.23;-1.521E+00
225.23;-1.521E+00
226.23;-1.521E+00
227.23;-1.520E+00
228.23;-1.520E+00
229.23;-1.520E+00
230.23;-1.520E+00
231.23;-1.520E+00
232.23;-1.520E+00
233.23;-1.519E+00
234.23;-1.519E+00
235.23;-1.519E+00
236.23;-1.519E+00
237.23;-1.519E+00
238.23;-1.519E+00
239.23;-1.518E+00
240.23;-1.518E+00
241.23;-1.518E+00
242.23;-1.518E+00
243.23;-1.518E+00
244.23;-1.518E+00
245.23;-1.517E+00
246.23;-1.517E+00
247.23;-1.517E+00
248.23;-1.516E+00
249.22;-1.516E+00
250.22;-1.516E+00
251.22;-1.515E+00
252.22;-1.515E+00
253.22;-1.515E+00
254.22;-1.514E+00
255.22;-1.514E+00
256.22;-1.513E+00
257.22;-1.512E+00
258.22;-1.511E+00
259.22;-1.510E+00
260.22;-1.508E+00
261.22;-1.507E+00
262.22;-1.505E+00
263.22;-1.504E+00
264.22;-1.502E+00
265.22;-1.501E+00
266.24;-1.500E+00
267.24;-1.498E+00
268.24;-1.497E+00
269.25;-1.496E+00
270.25;-1.496E+00
271.25;-1.496E+00
272.25;-1.495E+00
273.25;-1.495E+00
274.25;-1.494E+00
275.25;-1.494E+00
276.25;-1.494E+00
277.25;-1.494E+00
278.25;-1.494E+00
279.25;-1.493E+00
280.25;-1.493E+00
281.25;-1.493E+00
282.25;-1.492E+00
283.25;-1.492E+00
284.25;-1.493E+00
285.25;-1.492E+00
286.25;-1.493E+00
287.26;-1.493E+00
288.26;-1.493E+00
289.26;-1.493E+00
290.26;-1.493E+00
291.26;-1.493E+00
292.26;-1.493E+00
293.26;-1.492E+00
294.26;-1.493E+00
295.26;-1.492E+00
296.26;-1.492E+00
297.26;-1.492E+00
298.26;-1.492E+00
299.26;-1.492E+00
300.26;-1.492E+00
301.26;-1.492E+00
302.26;-1.492E+00
303.26;-1.491E+00
304.26;-1.491E+00
305.26;-1.491E+00
306.26;-1.491E+00
307.26;-1.491E+00
308.26;-1.491E+00
309.26;-1.491E+00
310.26;-1.491E+00
311.28;-1.490E+00
312.28;-1.490E+00
313.28;-1.490E+00
314.29;-1.490E+00
315.30;-1.490E+00
316.30;-1.490E+00
317.30;-1.489E+00
318.30;-1.489E+00
319.30;-1.489E+00
320.30;-1.489E+00
321.30;-1.489E+00
322.30;-1.489E+00
323.30;-1.489E+00
324.30;-1.489E+00
325.30;-1.489E+00
326.30;-1.488E+00
327.30;-1.488E+00
328.30;-1.488E+00
329.30;-1.488E+00
330.32;-1.487E+00
331.32;-1.487E+00
332.32;-1.487E+00
333.33;-1.487E+00
334.33;-1.487E+00
335.33;-1.487E+00
336.33;-1.486E+00
337.33;-1.486E+00
338.33;-1.486E+00
339.33;-1.486E+00
340.33;-1.486E+00
341.33;-1.486E+00
342.33;-1.485E+00
343.33;-1.485E+00
344.33;-1.485E+00
345.33;-1.485E+00
346.33;-1.484E+00
347.33;-1.484E+00
348.33;-1.484E+00
349.33;-1.484E+00
350.34;-1.484E+00
351.34;-1.484E+00
352.34;-1.483E+00
353.34;-1.483E+00
354.34;-1.483E+00
355.34;-1.483E+00
356.34;-1.482E+00
357.34;-1.482E+00
358.34;-1.482E+00
359.34;-1.482E+00
360.34;-1.482E+00
361.34;-1.481E+00
362.34;-1.481E+00
363.34;-1.481E+00
364.34;-1.481E+00
365.34;-1.480E+00
366.34;-1.480E+00
367.35;-1.480E+00
368.35;-1.480E+00
369.35;-1.479E+00
370.35;-1.479E+00
371.35;-1.479E+00
372.35;-1.479E+00
373.35;-1.478E+00
374.35;-1.478E+00
375.35;-1.478E+00
376.35;-1.478E+00
377.35;-1.478E+00
378.35;-1.477E+00
379.35;-1.477E+00
380.35;-1.477E+00
381.35;-1.476E+00
382.35;-1.476E+00
383.35;-1.476E+00
384.35;-1.475E+00
385.35;-1.475E+00
386.35;-1.475E+00
387.35;-1.475E+00
388.35;-1.474E+00
389.35;-1.474E+00
390.35;-1.474E+00
391.35;-1.473E+00
392.35;-1.473E+00
393.35;-1.473E+00
394.35;-1.472E+00
395.35;-1.472E+00
396.35;-1.471E+00
397.35;-1.472E+00
398.35;-1.471E+00
399.35;-1.471E+00
400.35;-1.471E+00
401.35;-1.470E+00
402.35;-1.470E+00
403.35;-1.470E+00
404.35;-1.469E+00
405.35;-1.469E+00
406.35;-1.469E+00
407.35;-1.468E+00
408.35;-1.468E+00
409.35;-1.468E+00
410.35;-1.467E+00
411.35;-1.467E+00
412.35;-1.467E+00
413.35;-1.467E+00
414.35;-1.466E+00
415.35;-1.466E+00
416.35;-1.466E+00
417.35;-1.465E+00
418.35;-1.465E+00
419.35;-1.464E+00
420.35;-1.464E+00
421.35;-1.464E+00
422.35;-1.463E+00
423.35;-1.463E+00
424.35;-1.463E+00
425.35;-1.462E+00
426.35;-1.462E+00
427.35;-1.462E+00
428.35;-1.461E+00
429.35;-1.461E+00
430.35;-1.461E+00
431.35;-1.460E+00
432.35;-1.460E+00
433.35;-1.459E+00
434.35;-1.459E+00
435.35;-1.459E+00
436.35;-1.458E+00
437.35;-1.458E+00
438.35;-1.457E+00
439.35;-1.457E+00
440.36;-1.456E+00
441.36;-1.456E+00
442.36;-1.456E+00
443.36;-1.455E+00
444.36;-1.455E+00
445.36;-1.455E+00
446.36;-1.454E+00
447.36;-1.454E+00
448.36;-1.454E+00
449.38;-1.454E+00
450.38;-1.453E+00
451.38;-1.453E+00
452.39;-1.452E+00
453.39;-1.452E+00
454.39;-1.451E+00
455.39;-1.451E+00
456.39;-1.450E+00
457.39;-1.450E+00
458.39;-1.450E+00
459.39;-1.450E+00
460.39;-1.449E+00
461.39;-1.449E+00
462.39;-1.448E+00
463.39;-1.448E+00
464.39;-1.448E+00
465.39;-1.447E+00
466.39;-1.447E+00
467.39;-1.447E+00
468.39;-1.446E+00
469.39;-1.446E+00
470.39;-1.445E+00
471.41;-1.445E+00
472.41;-1.445E+00
473.42;-1.444E+00
474.43;-1.444E+00
475.43;-1.443E+00
476.43;-1.443E+00
477.43;-1.442E+00
478.43;-1.442E+00
479.43;-1.441E+00
480.43;-1.441E+00
481.43;-1.441E+00
482.43;-1.440E+00
483.43;-1.440E+00
484.43;-1.439E+00
485.43;-1.439E+00
486.43;-1.439E+00
487.43;-1.438E+00
488.43;-1.438E+00
489.43;-1.437E+00
490.43;-1.437E+00
491.43;-1.436E+00
492.43;-1.436E+00
493.43;-1.436E+00
494.43;-1.435E+00
495.43;-1.435E+00
496.43;-1.434E+00
497.43;-1.434E+00
498.43;-1.433E+00
499.43;-1.433E+00
500.43;-1.433E+00
501.43;-1.432E+00
502.43;-1.432E+00
503.43;-1.432E+00
504.43;-1.431E+00
505.43;-1.431E+00
506.43;-1.431E+00
507.43;-1.430E+00
508.43;-1.429E+00
509.43;-1.429E+00
510.43;-1.429E+00
511.43;-1.428E+00
512.43;-1.428E+00
513.43;-1.427E+00
514.43;-1.427E+00
515.43;-1.427E+00
516.43;-1.426E+00
517.43;-1.426E+00
518.43;-1.425E+00
519.43;-1.425E+00
520.44;-1.424E+00
521.44;-1.424E+00
522.44;-1.424E+00
523.46;-1.423E+00
524.46;-1.423E+00
525.46;-1.422E+00
526.46;-1.422E+00
527.46;-1.421E+00
528.46;-1.421E+00
529.47;-1.421E+00
530.47;-1.420E+00
531.47;-1.420E+00
532.47;-1.419E+00
533.49;-1.419E+00
534.50;-1.418E+00
535.50;-1.418E+00
536.50;-1.418E+00
537.50;-1.417E+00
538.52;-1.417E+00
539.52;-1.416E+00
540.52;-1.416E+00
541.52;-1.415E+00
542.52;-1.415E+00
543.52;-1.414E+00
544.52;-1.414E+00
545.52;-1.414E+00
546.51;-1.413E+00
547.53;-1.413E+00
548.53;-1.412E+00
549.55;-1.412E+00
550.55;-1.411E+00
551.55;-1.411E+00
552.55;-1.410E+00
553.55;-1.410E+00
554.55;-1.410E+00
555.55;-1.409E+00
556.55;-1.409E+00
557.55;-1.408E+00
558.55;-1.408E+00
559.55;-1.407E+00
560.55;-1.406E+00
561.56;-1.407E+00
562.56;-1.406E+00
563.56;-1.405E+00
564.56;-1.405E+00
565.58;-1.404E+00
566.58;-1.404E+00
567.58;-1.404E+00
568.58;-1.403E+00
569.58;-1.403E+00
570.59;-1.402E+00
571.59;-1.402E+00
572.59;-1.401E+00
573.61;-1.401E+00
574.61;-1.401E+00
575.61;-1.400E+00
576.61;-1.399E+00
577.60;-1.399E+00
578.60;-1.399E+00
579.60;-1.398E+00
580.61;-1.398E+00
581.61;-1.397E+00
582.61;-1.397E+00
583.61;-1.396E+00
584.60;-1.395E+00
585.60;-1.396E+00
586.60;-1.395E+00
587.60;-1.395E+00
588.60;-1.394E+00
589.62;-1.394E+00
590.62;-1.393E+00
591.64;-1.393E+00
592.64;-1.392E+00
593.64;-1.392E+00
594.64;-1.391E+00
595.65;-1.391E+00
596.67;-1.390E+00
597.67;-1.390E+00
598.67;-1.390E+00
599.67;-1.389E+00
600.67;-1.389E+00
601.67;-1.388E+00
602.68;-1.388E+00
603.68;-1.387E+00
604.70;-1.387E+00
605.71;-1.387E+00
606.71;-1.386E+00
607.73;-1.385E+00
608.75;-1.385E+00
609.76;-1.384E+00
610.79;-1.384E+00
611.80;-1.383E+00
612.82;-1.383E+00
613.84;-1.382E+00
614.85;-1.382E+00
615.87;-1.382E+00
616.87;-1.381E+00
617.87;-1.380E+00
618.88;-1.380E+00
619.90;-1.380E+00
620.90;-1.379E+00
621.91;-1.379E+00
622.93;-1.378E+00
623.94;-1.378E+00
624.94;-1.377E+00
625.96;-1.377E+00
626.98;-1.376E+00
627.98;-1.376E+00
628.98;-1.375E+00
629.99;-1.375E+00
631.01;-1.374E+00
632.01;-1.374E+00
633.02;-1.374E+00
634.04;-1.373E+00
635.05;-1.373E+00
636.07;-1.372E+00
637.10;-1.372E+00
638.13;-1.371E+00
639.14;-1.370E+00
640.16;-1.370E+00
641.18;-1.369E+00
642.19;-1.368E+00
643.19;-1.368E+00
644.21;-1.368E+00
645.21;-1.367E+00
646.22;-1.367E+00
647.22;-1.366E+00
648.24;-1.366E+00
649.24;-1.365E+00
650.25;-1.365E+00
651.27;-1.364E+00
652.27;-1.364E+00
653.27;-1.364E+00
654.30;-1.363E+00
655.33;-1.362E+00
656.35;-1.362E+00
657.36;-1.361E+00
658.38;-1.361E+00
659.39;-1.361E+00
660.41;-1.360E+00
661.43;-1.360E+00
662.44;-1.359E+00
663.46;-1.359E+00
664.47;-1.358E+00
665.49;-1.358E+00
666.50;-1.357E+00
667.52;-1.357E+00
668.53;-1.356E+00
669.57;-1.355E+00
670.57;-1.355E+00
671.58;-1.355E+00
672.61;-1.354E+00
673.64;-1.354E+00
674.67;-1.353E+00
675.69;-1.352E+00
676.70;-1.352E+00
677.72;-1.352E+00
678.73;-1.351E+00
679.75;-1.351E+00
680.76;-1.350E+00
681.78;-1.350E+00
682.80;-1.349E+00
683.81;-1.349E+00
684.83;-1.348E+00
685.84;-1.348E+00
686.86;-1.348E+00
687.87;-1.347E+00
688.89;-1.346E+00
689.91;-1.346E+00
690.92;-1.345E+00
691.94;-1.345E+00
692.95;-1.344E+00
693.98;-1.344E+00
695.01;-1.343E+00
696.04;-1.343E+00
697.06;-1.342E+00
698.07;-1.342E+00
699.09;-1.341E+00
700.10;-1.341E+00
701.12;-1.340E+00
702.14;-1.340E+00
703.15;-1.339E+00
704.17;-1.339E+00
705.18;-1.338E+00
706.20;-1.338E+00
707.21;-1.337E+00
708.23;-1.337E+00
709.25;-1.336E+00
710.26;-1.336E+00
711.26;-1.335E+00
712.28;-1.335E+00
713.29;-1.334E+00
714.31;-1.334E+00
715.32;-1.334E+00
716.34;-1.333E+00
717.35;-1.332E+00
718.37;-1.332E+00
719.38;-1.332E+00
720.41;-1.331E+00
721.43;-1.330E+00
722.44;-1.330E+00
723.46;-1.329E+00
724.48;-1.329E+00
725.49;-1.328E+00
726.51;-1.328E+00
727.52;-1.327E+00
728.54;-1.327E+00
729.55;-1.327E+00
730.57;-1.326E+00
731.59;-1.325E+00
732.60;-1.325E+00
733.62;-1.324E+00
734.63;-1.324E+00
735.65;-1.323E+00
736.66;-1.323E+00
737.68;-1.322E+00
738.69;-1.322E+00
739.72;-1.321E+00
740.75;-1.321E+00
741.77;-1.320E+00
742.79;-1.320E+00
743.80;-1.319E+00
744.83;-1.318E+00
745.85;-1.318E+00
746.86;-1.318E+00
747.88;-1.317E+00
748.89;-1.317E+00
749.91;-1.316E+00
750.93;-1.316E+00
751.94;-1.315E+00
752.96;-1.315E+00
753.97;-9.024E+00
754.99;-2.598E+01
756.00;-3.619E+01
757.02;-4.209E+01
758.03;-4.565E+01
759.05;-4.789E+01
760.07;-4.935E+01
761.08;-5.034E+01
762.10;-5.101E+01
763.11;-5.146E+01
764.13;-5.175E+01
765.14;-5.192E+01
766.16;-5.201E+01
767.18;-5.202E+01
768.19;-5.198E+01
769.21;-5.189E+01
770.24;-5.177E+01
771.25;-5.162E+01
772.26;-5.144E+01
773.30;-5.123E+01
774.30;-5.102E+01
775.31;-5.078E+01
776.33;-5.053E+01
777.34;-5.026E+01
778.36;-4.998E+01
779.37;-4.969E+01
780.39;-4.939E+01
781.41;-4.908E+01
782.42;-4.876E+01
783.44;-4.843E+01
784.45;-4.809E+01
785.47;-4.774E+01
786.48;-4.739E+01
787.50;-4.702E+01
788.51;-4.664E+01
789.53;-4.626E+01
790.56;-4.586E+01
791.59;-4.545E+01
792.60;-4.504E+01
793.62;-4.462E+01
794.64;-4.419E+01
795.65;-4.374E+01
796.67;-4.329E+01
797.68;-4.282E+01
798.70;-4.235E+01
799.71;-4.186E+01
800.73;-4.136E+01
801.75;-4.084E+01
802.76;-4.031E+01
803.78;-3.977E+01
804.79;-3.921E+01
805.81;-3.864E+01
806.82;-3.805E+01
807.84;-3.745E+01
808.85;-3.683E+01
809.87;-3.620E+01
810.88;-3.554E+01
811.90;-3.488E+01
812.91;-3.419E+01
813.93;-3.349E+01
814.94;-3.277E+01
815.96;-3.203E+01
816.98;-3.129E+01
817.99;-3.054E+01
819.01;-2.978E+01
820.02;-2.903E+01
821.04;-2.829E+01
822.05;-2.755E+01
823.07;-2.684E+01
824.09;-2.614E+01
825.10;-2.546E+01
826.12;-2.479E+01
827.13;-2.415E+01
828.13;-2.353E+01
829.15;-2.291E+01
830.16;-2.232E+01
831.18;-2.174E+01
832.19;-2.117E+01
833.21;-2.062E+01
834.23;-2.008E+01
835.24;-1.956E+01
836.27;-1.905E+01
837.30;-1.855E+01
838.33;-1.806E+01
839.35;-1.759E+01
840.36;-1.714E+01
841.38;-1.670E+01
842.39;-1.627E+01
843.41;-1.585E+01
844.43;-1.544E+01
845.44;-1.504E+01
846.46;-1.466E+01
847.47;-1.428E+01
848.47;-1.392E+01
849.47;-1.357E+01
850.47;-1.323E+01
851.47;-1.290E+01
852.49;-1.257E+01
853.49;-1.225E+01
854.49;-1.195E+01
855.50;-1.164E+01
856.51;-1.135E+01
857.53;-1.106E+01
858.55;-1.078E+01
859.56;-1.051E+01
860.58;-1.024E+01
861.59;-9.986E+00
862.61;-9.735E+00
863.62;-9.491E+00
864.64;-9.253E+00
865.66;-9.023E+00
866.67;-8.797E+00
867.69;-8.578E+00
868.70;-8.365E+00
869.72;-8.157E+00
870.73;-7.955E+00
871.76;-7.756E+00
872.79;-7.561E+00
873.81;-7.375E+00
874.82;-7.194E+00
875.84;-7.018E+00
876.85;-6.846E+00
877.87;-6.679E+00
878.89;-6.516E+00
879.90;-6.358E+00
880.92;-6.204E+00
881.93;-6.053E+00
882.95;-5.908E+00
883.96;-5.765E+00
884.98;-5.627E+00
886.00;-5.492E+00
887.01;-5.361E+00
888.01;-5.236E+00
889.03;-5.112E+00
890.04;-4.990E+00
891.06;-4.872E+00
892.07;-4.758E+00
893.10;-4.645E+00
894.13;-4.534E+00
895.16;-4.427E+00
896.18;-4.324E+00
897.19;-4.224E+00
898.21;-4.127E+00
899.23;-4.032E+00
900.24;-3.940E+00
901.26;-3.849E+00
902.27;-3.762E+00
903.29;-3.677E+00
904.30;-3.594E+00
905.32;-3.513E+00
906.34;-3.434E+00
907.35;-3.358E+00
908.37;-3.283E+00
909.38;-3.211E+00
910.39;-3.140E+00
911.43;-3.070E+00
912.46;-3.002E+00
913.47;-2.937E+00
914.50;-2.872E+00
915.52;-2.810E+00
916.52;-2.751E+00
917.53;-2.692E+00
918.55;-2.635E+00
919.57;-2.580E+00
920.58;-2.526E+00
921.60;-2.473E+00
922.61;-2.422E+00
923.63;-2.372E+00
924.64;-2.323E+00
925.66;-2.276E+00
926.68;-2.230E+00
927.69;-2.185E+00
928.71;-2.141E+00
929.72;-2.099E+00
930.74;-2.058E+00
931.75;-2.016E+00
932.77;-1.976E+00
933.78;-1.938E+00
934.82;-1.900E+00
935.83;-1.864E+00
936.84;-1.828E+00
937.87;-1.793E+00
938.87;-1.760E+00
939.89;-1.728E+00
940.91;-1.696E+00
941.92;-1.665E+00
942.94;-1.635E+00
943.95;-1.605E+00
944.97;-1.577E+00
945.98;-1.549E+00
947.00;-1.522E+00
948.00;-1.496E+00
949.01;-1.470E+00
950.03;-1.445E+00
951.05;-1.420E+00
952.06;-1.397E+00
953.08;-1.373E+00
954.09;-1.351E+00
955.11;-1.328E+00
956.12;-1.307E+00
957.14;-1.286E+00
958.17;-1.265E+00
959.18;-1.246E+00
960.20;-1.226E+00
961.21;-1.208E+00
962.21;-1.190E+00
963.23;-1.172E+00
964.25;-1.154E+00
965.26;-1.137E+00
966.28;-1.174E+00
967.29;-1.230E+00
968.31;-1.149E+00
969.32;-1.104E+00
970.34;-1.087E+00
971.35;-1.080E+00
972.37;-1.074E+00
973.39;-1.067E+00
974.40;-1.059E+00
975.42;-1.050E+00
976.43;-1.039E+00
977.45;-1.028E+00
978.46;-1.017E+00
979.48;-1.005E+00
980.50;-9.931E-01
981.51;-9.817E-01
982.53;-9.701E-01
983.54;-9.590E-01
984.56;-9.477E-01
985.57;-9.368E-01
986.59;-9.263E-01
987.60;-9.156E-01
988.63;-9.050E-01
989.66;-8.947E-01
990.68;-8.845E-01
991.69;-8.747E-01
992.71;-8.656E-01
993.73;-8.560E-01
994.74;-8.470E-01
995.76;-8.378E-01
996.77;-8.287E-01
997.79;-8.194E-01
998.80;-8.117E-01
999.82;-8.035E-01
1000.84;-7.949E-01
1001.85;-7.869E-01
1002.87;-7.792E-01
1003.88;-7.716E-01
1004.90;-7.636E-01
1005.91;-7.563E-01
1006.93;-7.490E-01
1007.93;-7.424E-01
1008.96;-7.353E-01
1009.97;-7.286E-01
1010.99;-7.210E-01
1012.00;-7.139E-01
1013.02;-7.067E-01
1014.03;-7.006E-01
1015.05;-6.952E-01
1016.07;-6.897E-01
1017.08;-6.844E-01
1018.10;-6.789E-01
1019.11;-6.740E-01
1020.13;-6.690E-01
1021.14;-6.641E-01
1022.16;-6.588E-01
1023.18;-6.537E-01
1024.19;-6.488E-01
1025.21;-6.440E-01
1026.22;-6.394E-01
1027.24;-6.344E-01
1028.25;-6.291E-01
1029.27;-6.244E-01
1030.28;-6.206E-01
1031.30;-6.166E-01
1032.32;-6.128E-01
1033.33;-6.087E-01
1034.35;-6.050E-01
1035.36;-6.014E-01
1036.38;-5.982E-01
1037.39;-5.945E-01
1038.41;-5.908E-01
1039.43;-5.874E-01
1040.44;-5.845E-01
1041.46;-5.809E-01
1042.49;-5.777E-01
1043.50;-5.747E-01
1044.51;-5.715E-01
1045.53;-5.685E-01
1046.55;-5.652E-01
1047.56;-5.625E-01
1048.59;-5.594E-01
1049.62;-5.569E-01
1050.64;-5.540E-01
1051.66;-5.515E-01
1052.67;-5.484E-01
1053.69;-5.458E-01
1054.70;-5.435E-01
1055.72;-5.412E-01
1056.73;-5.389E-01
1057.75;-5.367E-01
1058.76;-5.348E-01
1059.78;-5.334E-01
1060.80;-5.312E-01
1061.81;-5.289E-01
1062.83;-5.272E-01
1063.84;-5.251E-01
1064.86;-5.228E-01
1065.87;-5.209E-01
1066.89;-5.189E-01
1067.89;-5.172E-01
1068.91;-5.152E-01
1069.93;-5.133E-01
1070.95;-5.118E-01
1071.96;-5.099E-01
1072.98;-5.080E-01
1074.00;-5.065E-01
1075.01;-5.052E-01
1076.03;-5.031E-01
1077.04;-5.016E-01
1078.06;-5.000E-01
1079.07;-4.985E-01
1080.09;-4.969E-01
1081.10;-4.955E-01
1082.12;-4.940E-01
1083.14;-4.926E-01
1084.15;-4.911E-01
1085.17;-4.899E-01
1086.18;-4.886E-01
1087.20;-4.873E-01
1088.21;-4.860E-01
1089.23;-4.844E-01
1090.25;-4.831E-01
1091.26;-4.819E-01
1092.28;-4.811E-01
1093.29;-4.796E-01
1094.31;-4.788E-01
1095.32;-4.774E-01
1096.34;-4.762E-01
1097.35;-4.753E-01
1098.37;-4.740E-01
1099.39;-4.731E-01
1100.40;-4.718E-01
1101.42;-4.709E-01
1102.43;-4.700E-01
1103.45;-4.689E-01
1104.46;-4.678E-01
1105.48;-4.670E-01
1106.50;-4.660E-01
1107.51;-4.650E-01
1108.53;-4.640E-01
1109.54;-4.634E-01
1110.56;-4.626E-01
1111.57;-4.613E-01
1112.59;-4.606E-01
1113.60;-4.595E-01
1114.62;-4.588E-01
1115.63;-4.582E-01
1116.67;-4.570E-01
1117.68;-4.563E-01
1118.71;-4.554E-01
1119.73;-4.547E-01
1120.74;-4.540E-01
1121.76;-4.531E-01
1122.77;-4.525E-01
1123.79;-4.514E-01
1124.80;-4.510E-01
1125.82;-4.500E-01
1126.84;-4.494E-01
1127.84;-4.486E-01
1128.85;-4.479E-01
1129.87;-4.472E-01
1130.88;-4.466E-01
1131.90;-4.460E-01
1132.91;-4.451E-01
1133.93;-4.448E-01
1134.94;-4.439E-01
1135.96;-4.432E-01
1136.98;-4.426E-01
1137.99;-4.415E-01
1139.01;-4.413E-01
1140.02;-4.401E-01
1141.04;-4.397E-01
1142.07;-4.391E-01
1143.10;-4.386E-01
1144.13;-4.374E-01
1145.14;-4.215E-01
1146.16;-4.115E-01
1147.18;-4.095E-01
1148.19;-4.113E-01
1149.21;-4.140E-01
1150.22;-4.163E-01
1151.24;-4.185E-01
1152.25;-4.204E-01
1153.27;-4.212E-01
1154.28;-4.218E-01
1155.30;-4.224E-01
1156.32;-4.226E-01
1157.33;-4.228E-01
1158.36;-4.228E-01
1159.38;-4.226E-01
1160.39;-4.222E-01
1161.41;-4.224E-01
1162.43;-4.219E-01
1163.44;-4.214E-01
1164.47;-4.212E-01
1165.49;-4.210E-01
1166.50;-4.205E-01
1167.51;-4.205E-01
1168.55;-4.200E-01
1169.56;-4.193E-01
1170.58;-4.192E-01
1171.59;-4.188E-01
1172.61;-4.183E-01
1173.62;-4.182E-01
1174.64;-4.180E-01
1175.66;-4.174E-01
1176.67;-4.173E-01
1177.69;-4.164E-01
1178.70;-4.162E-01
1179.72;-4.157E-01
1180.73;-4.158E-01
1181.75;-4.149E-01
1182.76;-4.149E-01
1183.78;-4.147E-01
1184.80;-4.139E-01
1185.81;-4.136E-01
1186.83;-4.132E-01
1187.83;-4.131E-01
1188.84;-4.125E-01
1189.86;-4.120E-01
1190.87;-4.114E-01
1191.91;-4.112E-01
1192.93;-4.108E-01
1193.96;-4.105E-01
1194.98;-4.100E-01
1196.00;-4.097E-01
1197.01;-4.096E-01
1198.03;-4.090E-01
1199.04;-4.087E-01
1200.06;-4.082E-01
1201.07;-4.080E-01
1202.09;-4.074E-01
1203.10;-4.072E-01
1204.12;-4.066E-01
1205.14;-4.065E-01
1206.15;-4.059E-01
1207.17;-4.056E-01
1208.18;-4.051E-01
1209.20;-4.044E-01
1210.21;-4.044E-01
1211.23;-4.039E-01
1212.25;-4.032E-01
1213.26;-4.033E-01
1214.28;-4.025E-01
1215.29;-4.022E-01
1216.31;-4.017E-01
1217.32;-4.012E-01
1218.34;-4.006E-01
1219.35;-4.005E-01
1220.37;-4.003E-01
1221.39;-4.002E-01
1222.40;-3.999E-01
1223.42;-3.991E-01
1224.43;-3.990E-01
1225.45;-3.985E-01
1226.46;-3.980E-01
1227.48;-3.977E-01
1228.49;-3.971E-01
1229.51;-3.969E-01
1230.54;-3.958E-01
1231.55;-3.960E-01
1232.57;-3.957E-01
1233.59;-3.950E-01
1234.60;-3.945E-01
1235.62;-3.942E-01
1236.63;-3.935E-01
1237.65;-3.932E-01
1238.66;-3.927E-01
1239.68;-3.924E-01
1240.69;-3.922E-01
1241.71;-3.914E-01
1242.73;-3.908E-01
1243.74;-3.909E-01
1244.76;-3.900E-01
1245.77;-3.896E-01
1246.79;-3.897E-01
1247.80;-3.893E-01
1248.82;-3.888E-01
1249.84;-3.884E-01
1250.84;-3.878E-01
1251.85;-3.874E-01
1252.87;-3.872E-01
1253.89;-3.867E-01
1254.93;-3.860E-01
1255.93;-3.857E-01
1256.96;-3.855E-01
1257.97;-3.848E-01
1259.00;-3.846E-01
1260.02;-3.843E-01
1261.03;-3.837E-01
1262.05;-3.833E-01
1263.07;-3.830E-01
1264.08;-3.822E-01
1265.10;-3.823E-01
1266.11;-3.819E-01
1267.13;-3.809E-01
1268.14;-3.807E-01
1269.16;-3.802E-01
1270.18;-3.800E-01
1271.19;-3.794E-01
1272.21;-3.790E-01
1273.24;-3.784E-01
1274.26;-3.781E-01
1275.30;-3.782E-01
1276.31;-3.775E-01
1277.33;-3.771E-01
1278.34;-3.765E-01
1279.36;-3.761E-01
1280.37;-3.755E-01
1281.39;-3.751E-01
